  2.5950E-07  1.3569E+13
  2.6050E-07  1.1200E+13
  2.6150E-07  1.1807E+13
  2.6250E-07  1.3673E+13
  2.6350E-07  2.1966E+13
  2.6450E-07  3.3207E+13
  2.6550E-07  3.3733E+13
  2.6650E-07  3.3418E+13
  2.6750E-07  3.3732E+13
  2.6850E-07  3.2913E+13
  2.6950E-07  3.2371E+13
  2.7050E-07  3.6354E+13
  2.7150E-07  3.0632E+13
  2.7250E-07  2.7046E+13
  2.7350E-07  2.7021E+13
  2.7450E-07  1.8301E+13
  2.7550E-07  2.4255E+13
  2.7650E-07  3.3754E+13
  2.7750E-07  3.2621E+13
  2.7850E-07  2.2306E+13
  2.7950E-07  1.2022E+13
  2.8050E-07  1.3346E+13
  2.8150E-07  2.9482E+13
  2.8250E-07  4.1773E+13
  2.8350E-07  4.4687E+13
  2.8450E-07  3.3658E+13
  2.8550E-07  2.3412E+13
  2.8650E-07  4.6485E+13
  2.8750E-07  4.8613E+13
  2.8850E-07  4.6737E+13
  2.8950E-07  6.8805E+13
  2.9050E-07  8.7826E+13
  2.9150E-07  8.5124E+13
  2.9250E-07  7.6754E+13
  2.9350E-07  7.9023E+13
  2.9450E-07  7.5339E+13
  2.9550E-07  8.2191E+13
  2.9650E-07  7.5970E+13
  2.9750E-07  7.5882E+13
  2.9850E-07  6.9864E+13
  2.9950E-07  7.2883E+13
  3.0050E-07  6.3457E+13
  3.0150E-07  6.9050E+13
  3.0250E-07  7.4374E+13
  3.0350E-07  9.4702E+13
  3.0450E-07  9.2242E+13
  3.0550E-07  9.1363E+13
  3.0650E-07  8.5636E+13
  3.0750E-07  9.5084E+13
  3.0850E-07  9.4835E+13
  3.0950E-07  7.7262E+13
  3.1050E-07  9.7167E+13
  3.1150E-07  1.1421E+14
  3.1250E-07  1.0306E+14
  3.1350E-07  1.1032E+14
  3.1450E-07  1.0482E+14
  3.1550E-07  1.0041E+14
  3.1650E-07  1.0076E+14
  3.1750E-07  1.2354E+14
  3.1850E-07  1.0648E+14
  3.1950E-07  1.1414E+14
  3.2050E-07  1.2974E+14
  3.2150E-07  1.1307E+14
  3.2250E-07  1.1166E+14
  3.2350E-07  1.0756E+14
  3.2450E-07  1.2413E+14
  3.2550E-07  1.4333E+14
  3.2650E-07  1.6080E+14
  3.2750E-07  1.5688E+14
  3.2850E-07  1.5156E+14
  3.2950E-07  1.7578E+14
  3.3050E-07  1.6883E+14
  3.3150E-07  1.6096E+14
  3.3250E-07  1.5964E+14
  3.3350E-07  1.5453E+14
  3.3450E-07  1.6127E+14
  3.3550E-07  1.5914E+14
  3.3650E-07  1.3696E+14
  3.3750E-07  1.4285E+14
  3.3850E-07  1.5683E+14
  3.3950E-07  1.6354E+14
  3.4050E-07  1.7240E+14
  3.4150E-07  1.5862E+14
  3.4250E-07  1.7100E+14
  3.4350E-07  1.6418E+14
  3.4450E-07  1.3782E+14
  3.4550E-07  1.6315E+14
  3.4650E-07  1.6139E+14
  3.4750E-07  1.5754E+14
  3.4850E-07  1.5721E+14
  3.4950E-07  1.5636E+14
  3.5050E-07  1.8504E+14
  3.5150E-07  1.7311E+14
  ----------------------
  F107 = 155
  ---------------------
Column 1 = wavelength (m)
Column2 = solar flux from solar2000 V24a model.
Used for calculation of photodissociation rate of H2O2
